Folder: TickerScripts/refinedstock

Note: README.md
# TickerScripts
Algorithmic manipulation on data sets

The beginning structure for data analysis and probability algorithms layered on top of each other.

All in python3 using MongoDB as the database and pymongo as the API.

File: TGA
,0,3
14,2000-10-03 08:00:00,0.95
29,2000-10-31 01:00:00,0.7
44,2000-11-01 01:00:00,0.48
59,2000-11-01 23:00:00,0.42
74,2000-11-02 22:00:00,0.39
89,2000-11-03 19:00:00,0.415
104,2000-11-04 17:00:00,0.42
119,2000-11-05 14:00:00,0.31
134,2001-04-03 04:00:00,0.33
149,2001-04-04 01:00:00,0.35
164,2001-04-04 23:00:00,0.37
179,2001-04-05 20:00:00,0.34
194,2001-04-06 18:00:00,0.0
209,2001-04-07 15:00:00,0.0
224,2001-04-08 12:00:00,0.27
239,2001-04-09 16:00:00,0.24
254,2001-04-10 13:00:00,0.195
269,2001-10-29 16:00:00,0.2
284,2001-10-30 13:00:00,0.23
299,2001-10-31 11:00:00,0.3
314,2001-11-01 12:00:00,0.47
329,2001-11-02 10:00:00,0.38
344,2001-11-03 08:00:00,0.31
359,2001-11-04 05:00:00,0.3
374,2001-11-05 03:00:00,0.35
389,2002-04-09 07:00:00,0.32
404,2002-04-10 04:00:00,0.37
419,2002-04-11 02:00:00,0.34
434,2002-04-11 23:00:00,0.3
449,2002-04-12 23:00:00,0.29
464,2002-04-13 20:00:00,0.29
479,2002-04-14 18:00:00,0.28
494,2002-04-15 15:00:00,0.33
509,2002-04-16 12:00:00,0.33
524,2002-10-28 22:00:00,0.3
539,2002-10-29 19:00:00,0.27
554,2002-10-30 17:00:00,0.37
569,2002-10-31 16:00:00,0.38
584,2002-11-01 16:00:00,0.4
599,2002-11-02 14:00:00,0.44
614,2002-11-03 11:00:00,0.43
629,2003-04-07 15:00:00,0.45
644,2003-04-08 13:00:00,0.46
659,2003-04-09 10:00:00,0.49
674,2003-04-10 08:00:00,0.49
689,2003-04-11 05:00:00,0.5
704,2003-04-12 03:00:00,0.5
719,2003-04-13 00:00:00,0.73
734,2003-04-14 00:00:00,0.95
749,2003-04-14 21:00:00,0.95
764,2003-04-15 18:00:00,1.14
779,2003-10-28 04:00:00,1.67
794,2003-10-29 02:00:00,1.64
809,2003-10-29 23:00:00,2.35
824,2003-10-30 22:00:00,2.92
839,2003-10-31 20:00:00,1.83
854,2003-11-01 20:00:00,2.41
869,2003-11-02 17:00:00,2.29
884,2004-04-05 22:00:00,2.67
899,2004-04-06 19:00:00,2.21
914,2004-04-07 16:00:00,2.25
929,2004-04-08 15:00:00,2.44
944,2004-04-09 13:00:00,2.78
959,2004-04-10 10:00:00,2.26
974,2004-04-11 07:00:00,2.34
989,2004-04-12 07:00:00,2.16
1004,2004-04-13 04:00:00,3.2
1019,2004-04-14 01:00:00,4.2
1034,2004-11-02 04:00:00,3.56
1049,2004-11-03 02:00:00,4.53
1064,2004-11-04 00:00:00,4.91
1079,2004-11-04 22:00:00,5.59
1094,2004-11-05 19:00:00,6.38
1109,2004-11-06 17:00:00,7.01
1124,2004-11-07 17:00:00,6.14
1139,2005-04-05 04:00:00,4.75
1154,2005-04-06 01:00:00,5.12
1169,2005-04-06 23:00:00,5.07
1184,2005-04-07 20:00:00,6.84
1199,2005-04-08 18:00:00,6.76
1214,2005-04-09 15:00:00,6.3
1229,2005-04-10 12:00:00,6.16
1244,2005-04-11 10:00:00,5.89
1259,2005-04-12 07:00:00,5.74
1274,2005-04-13 04:00:00,4.74
1289,2005-11-01 07:00:00,5.13
1304,2005-11-02 05:00:00,5.33
1319,2005-11-03 06:00:00,5.11
1334,2005-11-04 04:00:00,5.52
1349,2005-11-05 01:00:00,5.15
1364,2005-11-05 23:00:00,5.35
1379,2005-11-06 20:00:00,5.38
1394,2006-04-04 08:00:00,5.95
1409,2006-04-05 05:00:00,5.44
1424,2006-04-06 05:00:00,5.15
1439,2006-04-07 02:00:00,4.52
1454,2006-04-08 00:00:00,4.55
1469,2006-04-08 21:00:00,4.91
1484,2006-04-09 18:00:00,4.75
1499,2006-04-10 16:00:00,4.66
1514,2006-04-11 13:00:00,4.4
1529,2006-10-30 16:00:00,4.58
1544,2006-10-31 13:00:00,5.0
1559,2006-11-01 11:00:00,5.31
1574,2006-11-02 13:00:00,4.7
1589,2006-11-03 11:00:00,4.84
1604,2006-11-04 09:00:00,4.411
1619,2007-03-12 17:00:00,4.09
1634,2007-03-13 14:00:00,3.98
1649,2007-03-14 12:00:00,4.13
1664,2007-03-15 09:00:00,3.85
1679,2007-03-16 09:00:00,4.0
1694,2007-03-17 06:00:00,4.4
1709,2007-03-18 04:00:00,4.8
1724,2007-03-19 01:00:00,3.59
1739,2007-03-19 23:00:00,3.98
1754,2007-03-20 20:00:00,4.57
1769,2007-03-21 17:00:00,5.25
1784,2007-11-05 16:00:00,5.64
1799,2007-11-06 14:00:00,5.21
1814,2007-11-07 11:00:00,4.78
1829,2007-11-08 12:00:00,5.18
1844,2007-11-09 10:00:00,4.8
1859,2007-11-10 08:00:00,5.41
1874,2008-03-10 23:00:00,4.37
1889,2008-03-11 21:00:00,4.65
1904,2008-03-12 18:00:00,4.45
1919,2008-03-13 15:00:00,5.18
1934,2008-03-14 13:00:00,5.13
1949,2008-03-15 13:00:00,4.65
1964,2008-03-16 10:00:00,4.07
1979,2008-03-17 07:00:00,3.8
1994,2008-03-18 05:00:00,3.39
2009,2008-03-19 02:00:00,2.71
2024,2008-03-19 23:00:00,1.88
2039,2008-11-03 22:00:00,2.23
2054,2008-11-04 20:00:00,1.95
2069,2008-11-05 17:00:00,2.1
2084,2008-11-06 16:00:00,2.29
2099,2008-11-07 16:00:00,2.77
2114,2008-11-08 14:00:00,2.2699
2129,2009-03-10 05:00:00,2.7
2144,2009-03-11 03:00:00,2.35
2159,2009-03-12 00:00:00,2.77
2174,2009-03-12 22:00:00,2.51
2189,2009-03-13 19:00:00,2.66
2204,2009-03-14 17:00:00,2.24
2219,2009-03-15 14:00:00,3.08
2234,2009-03-16 11:00:00,3.09
2249,2009-03-17 11:00:00,3.25
2264,2009-03-18 08:00:00,3.51
2279,2009-03-19 05:00:00,4.15
2294,2009-11-03 04:00:00,3.57
2309,2009-11-30 22:00:00,3.4
2324,2009-12-28 16:00:00,3.31
2339,2009-12-29 15:00:00,3.44
2354,2009-12-30 12:00:00,3.75
2369,2009-12-31 12:00:00,3.92
2384,2010-03-16 04:00:00,5.35
2399,2010-03-17 03:00:00,7.04
2414,2010-03-18 00:00:00,7.39
2429,2010-03-18 22:00:00,7.48
2444,2010-03-19 19:00:00,7.3
2459,2010-03-20 17:00:00,7.17
2474,2010-03-21 14:00:00,7.58
2489,2010-03-22 11:00:00,7.26
2504,2010-03-23 11:00:00,7.96
2519,2010-03-24 08:00:00,9.75
2534,2010-03-25 05:00:00,10.64
2549,2010-11-09 04:00:00,15.023
2564,2010-11-30 05:00:00,14.96
2579,2010-12-01 03:00:00,15.54
2594,2010-12-02 01:00:00,13.11
2609,2010-12-02 22:00:00,14.94
2624,2010-12-03 20:00:00,12.94
2639,2011-03-15 08:00:00,15.04
2654,2011-03-16 08:00:00,13.65
2669,2011-03-17 05:00:00,12.68
2684,2011-03-18 03:00:00,13.43
2699,2011-03-19 00:00:00,10.48
2714,2011-03-19 22:00:00,11.75
2729,2011-03-20 19:00:00,8.5
2744,2011-03-21 16:00:00,9.52
2759,2011-03-22 14:00:00,8.34
2774,2011-03-23 11:00:00,8.58
2789,2011-03-24 08:00:00,9.82
2804,2011-11-25 11:00:00,7.31
2819,2011-11-29 08:00:00,6.94
2834,2011-11-30 09:00:00,9.19
2849,2011-12-01 07:00:00,9.7
2864,2011-12-02 05:00:00,10.41
2879,2012-03-12 17:00:00,11.83
2894,2012-03-13 14:00:00,12.31
2909,2012-03-14 12:00:00,13.8
2924,2012-03-15 09:00:00,10.04
2939,2012-03-16 09:00:00,9.725
2954,2012-03-17 06:00:00,8.64
2969,2012-03-18 04:00:00,8.63
2984,2012-03-19 01:00:00,9.38
2999,2012-03-19 23:00:00,10.21
3014,2012-03-20 20:00:00,10.17
3029,2012-03-21 17:00:00,11.23
3044,2012-11-05 18:00:00,11.37
3059,2012-11-26 21:00:00,10.21
3074,2012-12-24 11:00:00,9.58
3089,2012-12-27 11:00:00,8.22
3104,2012-12-28 09:00:00,8.76
3119,2012-12-29 07:00:00,7.85
3134,2013-03-12 01:00:00,8.67
3149,2013-03-13 01:00:00,7.3299
3164,2013-03-13 22:00:00,8.13
3179,2013-03-14 20:00:00,7.275
3194,2013-03-15 17:00:00,7.05
3209,2013-03-16 15:00:00,5.73
3224,2013-03-17 12:00:00,6.3
3239,2013-03-18 09:00:00,6.66
3254,2013-03-19 07:00:00,7.3135
3269,2013-03-20 04:00:00,8.07
3284,2013-03-21 01:00:00,9.06
3299,2013-11-05 00:00:00,8.64
3314,2013-11-05 22:00:00,9.06
3329,2013-11-06 22:00:00,8.22
3344,2013-11-07 21:00:00,8.2
3359,2013-11-08 18:00:00,7.12
3374,2013-11-09 16:00:00,7.7
3389,2014-03-11 07:00:00,7.32
3404,2014-03-12 04:00:00,7.59
3419,2014-03-13 02:00:00,6.5
3434,2014-03-14 02:00:00,6.87
3449,2014-03-14 23:00:00,7.43
3464,2014-03-15 21:00:00,6.55
3479,2014-03-16 18:00:00,6.08
3494,2014-03-17 15:00:00,6.64
3509,2014-03-18 13:00:00,6.48
3524,2014-03-19 10:00:00,5.19
3539,2014-03-20 07:00:00,4.5
3554,2014-11-04 06:00:00,3.71
3569,2014-11-05 04:00:00,2.88
3584,2014-11-06 05:00:00,3.55
3599,2014-11-07 03:00:00,2.87
3614,2014-11-08 01:00:00,3.15
3629,2015-03-09 16:00:00,2.88
3644,2015-03-10 13:00:00,3.55
3659,2015-03-11 11:00:00,4.33
3674,2015-03-12 08:00:00,4.04
3689,2015-03-13 06:00:00,3.94
3704,2015-03-14 03:00:00,4.02
3719,2015-03-15 03:00:00,3.02
3734,2015-03-16 00:00:00,2.83
3749,2015-03-16 21:00:00,3.1
3764,2015-03-17 19:00:00,2.71
3779,2015-03-18 16:00:00,2.76
3794,2015-11-02 15:00:00,2.6801
3809,2015-11-03 12:00:00,2.0
3824,2015-11-04 10:00:00,1.51
3839,2015-11-05 09:00:00,1.56
3854,2015-11-06 09:00:00,1.34
3869,2015-11-07 07:00:00,1.3
3884,2016-03-14 15:00:00,1.597
3899,2016-03-15 13:00:00,1.63
3914,2016-03-16 10:00:00,1.95
3929,2016-03-17 07:00:00,1.8
3944,2016-03-18 05:00:00,1.77
3959,2016-03-19 02:00:00,1.75
3974,2016-03-20 00:00:00,1.7
3989,2016-03-20 21:00:00,1.87
4004,2016-03-21 18:00:00,1.87
4019,2016-03-22 18:00:00,1.85
4034,2016-03-23 15:00:00,2.06
4049,2016-11-07 14:00:00,1.781
4064,2016-11-28 15:00:00,1.68
4079,2016-11-29 12:00:00,1.65
4094,2016-11-30 11:00:00,1.76
4109,2016-12-01 09:00:00,1.72
4124,2016-12-02 09:00:00,1.64
4139,2017-03-13 21:00:00,1.485
4154,2017-03-14 18:00:00,1.6
4169,2017-03-15 16:00:00,1.45
4184,2017-03-16 13:00:00,1.51
4199,2017-03-17 11:00:00,1.24
4214,2017-07-05 15:00:00,1.305
4229,2017-07-06 12:00:00,1.33
4244,2017-07-07 09:00:00,1.2
4259,2017-07-08 07:00:00,1.25
4274,2017-07-09 04:00:00,1.38